Height (nm):	-230.000000
Position (nm)	Voltage (mV)
-4143.750000	-6.971876
-4127.175000	-7.214980
-4110.600000	-7.399488
-4094.025000	-7.540780
-4077.450000	-7.654907
-4060.875000	-7.725996
-4044.300000	-7.808886
-4027.725000	-7.835382
-4011.150000	-7.873690
-3994.575000	-7.906131
-3978.000000	-7.932146
-3961.425000	-7.944871
-3944.850000	-7.944542
-3928.275000	-7.964178
-3911.700000	-7.976788
-3895.125000	-7.983797
-3878.550000	-7.987517
-3861.975000	-7.985250
-3845.400000	-7.996659
-3828.825000	-7.991457
-3812.250000	-7.990096
-3795.675000	-8.001067
-3779.100000	-7.989237
-3762.525000	-7.993742
-3745.950000	-7.991369
-3729.375000	-7.979261
-3712.800000	-7.987135
-3696.225000	-7.970012
-3679.650000	-7.978256
-3663.075000	-7.983733
-3646.500000	-7.983911
-3629.925000	-7.969765
-3613.350000	-7.969482
-3596.775000	-7.956835
-3580.200000	-7.970237
-3563.625000	-7.974333
-3547.050000	-7.961251
-3530.475000	-7.971068
-3513.900000	-7.949175
-3497.325000	-7.962803
-3480.750000	-7.964136
-3464.175000	-7.962149
-3447.600000	-7.953833
-3431.025000	-7.962368
-3414.450000	-7.956724
-3397.875000	-7.958474
-3381.300000	-7.958027
-3364.725000	-7.949337
-3348.150000	-7.954622
-3331.575000	-7.946783
-3315.000000	-7.940148
-3298.425000	-7.930294
-3281.850000	-7.940314
-3265.275000	-7.940590
-3248.700000	-7.935999
-3232.125000	-7.947904
-3215.550000	-7.944099
-3198.975000	-7.926816
-3182.400000	-7.935636
-3165.825000	-7.932413
-3149.250000	-7.946420
-3132.675000	-7.936850
-3116.100000	-7.920631
-3099.525000	-7.921690
-3082.950000	-7.936133
-3066.375000	-7.920949
-3049.800000	-7.922942
-3033.225000	-7.928578
-3016.650000	-7.917264
-3000.075000	-7.926721
-2983.500000	-7.919146
-2966.925000	-7.914869
-2950.350000	-7.925562
-2933.775000	-7.922868
-2917.200000	-7.916142
-2900.625000	-7.912618
-2884.050000	-7.909729
-2867.475000	-7.916790
-2850.900000	-7.910817
-2834.325000	-7.909262
-2817.750000	-7.911774
-2801.175000	-7.906937
-2784.600000	-7.915211
-2768.025000	-7.908709
-2751.450000	-7.912390
-2734.875000	-7.903314
-2718.300000	-7.896629
-2701.725000	-7.912335
-2685.150000	-7.913773
-2668.575000	-7.905731
-2652.000000	-7.896496
-2635.425000	-7.898434
-2618.850000	-7.896970
-2602.275000	-7.899378
-2585.700000	-7.898845
-2569.125000	-7.891669
-2552.550000	-7.902790
-2535.975000	-7.892254
-2519.400000	-7.900014
-2502.825000	-7.900788
-2486.250000	-7.898703
-2469.675000	-7.905146
-2453.100000	-7.903070
-2436.525000	-7.893813
-2419.950000	-7.889815
-2403.375000	-7.900056
-2386.800000	-7.889281
-2370.225000	-7.891802
-2353.650000	-7.894011
-2337.075000	-7.899876
-2320.500000	-7.892096
-2303.925000	-7.889348
-2287.350000	-7.887773
-2270.775000	-7.881187
-2254.200000	-7.900748
-2237.625000	-7.882505
-2221.050000	-7.891311
-2204.475000	-7.889647
-2187.900000	-7.889904
-2171.325000	-7.882717
-2154.750000	-7.886583
-2138.175000	-7.880002
-2121.600000	-7.880830
-2105.025000	-7.879518
-2088.450000	-7.881779
-2071.875000	-7.882364
-2055.300000	-7.882058
-2038.725000	-7.881172
-2022.150000	-7.882744
-2005.575000	-7.885420
-1989.000000	-7.889339
-1972.425000	-7.888107
-1955.850000	-7.868155
-1939.275000	-7.884288
-1922.700000	-7.883282
-1906.125000	-7.875527
-1889.550000	-7.891674
-1872.975000	-7.871420
-1856.400000	-7.887473
-1839.825000	-7.877761
-1823.250000	-7.891206
-1806.675000	-7.883177
-1790.100000	-7.871177
-1773.525000	-7.866314
-1756.950000	-7.885850
-1740.375000	-7.877701
-1723.800000	-7.880814
-1707.225000	-7.866576
-1690.650000	-7.868796
-1674.075000	-7.871740
-1657.500000	-7.875509
-1640.925000	-7.882089
-1624.350000	-7.870425
-1607.775000	-7.873643
-1591.200000	-7.870351
-1574.625000	-7.883456
-1558.050000	-7.873154
-1541.475000	-7.876122
-1524.900000	-7.876760
-1508.325000	-7.875977
-1491.750000	-7.878063
-1475.175000	-7.864200
-1458.600000	-7.879513
-1442.025000	-7.876537
-1425.450000	-7.865830
-1408.875000	-7.870672
-1392.300000	-7.876479
-1375.725000	-7.881301
-1359.150000	-7.879237
-1342.575000	-7.868057
-1326.000000	-7.890264
-1309.425000	-7.886069
-1292.850000	-7.866935
-1276.275000	-7.875521
-1259.700000	-7.865463
-1243.125000	-7.880570
-1226.550000	-7.872154
-1209.975000	-7.859003
-1193.400000	-7.877422
-1176.825000	-7.867863
-1160.250000	-7.875321
-1143.675000	-7.870178
-1127.100000	-7.871394
-1110.525000	-7.867026
-1093.950000	-7.869154
-1077.375000	-7.862012
-1060.800000	-7.872665
-1044.225000	-7.870952
-1027.650000	-7.869695
-1011.075000	-7.858419
-994.500000	-7.876714
-977.925000	-7.872258
-961.350000	-7.867844
-944.775000	-7.873854
-928.200000	-7.860295
-911.625000	-7.868749
-895.050000	-7.866222
-878.475000	-7.859937
-861.900000	-7.871454
-845.325000	-7.881105
-828.750000	-7.865647
-812.175000	-7.869172
-795.600000	-7.872401
-779.025000	-7.871252
-762.450000	-7.880272
-745.875000	-7.872286
-729.300000	-7.884550
-712.725000	-7.876969
-696.150000	-7.852995
-679.575000	-7.870499
-663.000000	-7.874208
-646.425000	-7.877887
-629.850000	-7.861855
-613.275000	-7.863021
-596.700000	-7.863343
-580.125000	-7.864290
-563.550000	-7.868640
-546.975000	-7.863770
-530.400000	-7.869629
-513.825000	-7.871035
-497.250000	-7.867426
-480.675000	-7.868404
-464.100000	-7.855094
-447.525000	-7.859533
-430.950000	-7.861690
-414.375000	-7.859223
-397.800000	-7.855256
-381.225000	-7.866116
-364.650000	-7.864027
-348.075000	-7.867703
-331.500000	-7.871031
-314.925000	-7.882167
-298.350000	-7.871933
-281.775000	-7.862010
-265.200000	-7.864594
-248.625000	-7.877812
-232.050000	-7.862988
-215.475000	-7.867473
-198.900000	-7.865609
-182.325000	-7.857118
-165.750000	-7.866533
-149.175000	-7.868536
-132.600000	-7.866964
-116.025000	-7.861873
-99.450000	-7.876789
-82.875000	-7.874000
-66.300000	-7.866040
-49.725000	-7.863958
-33.150000	-7.862171
-16.575000	-7.878747
-0.000000	-7.876819
16.575000	-7.864843
33.150000	-7.870007
49.725000	-7.861366
66.300000	-7.866534
82.875000	-7.875471
99.450000	-7.873834
116.025000	-7.867068
132.600000	-7.874819
149.175000	-7.867206
165.750000	-7.871694
182.325000	-7.868744
198.900000	-7.872248
215.475000	-7.872314
232.050000	-7.867714
248.625000	-7.870756
265.200000	-7.858075
281.775000	-7.867460
298.350000	-7.873422
314.925000	-7.866379
331.500000	-7.875535
348.075000	-7.867858
364.650000	-7.863927
381.225000	-7.861116
397.800000	-7.869764
414.375000	-7.882780
430.950000	-7.873834
447.525000	-7.874825
464.100000	-7.865552
480.675000	-7.873457
497.250000	-7.865225
513.825000	-7.871107
530.400000	-7.863179
546.975000	-7.872108
563.550000	-7.889311
580.125000	-7.874599
596.700000	-7.871303
613.275000	-7.872041
629.850000	-7.865766
646.425000	-7.858053
663.000000	-7.868578
679.575000	-7.854737
696.150000	-7.861587
712.725000	-7.868941
729.300000	-7.876789
745.875000	-7.877706
762.450000	-7.874102
779.025000	-7.871332
795.600000	-7.864871
812.175000	-7.869222
828.750000	-7.866520
845.325000	-7.869165
861.900000	-7.865368
878.475000	-7.874362
895.050000	-7.878109
911.625000	-7.869997
928.200000	-7.862607
944.775000	-7.864353
961.350000	-7.869236
977.925000	-7.873665
994.500000	-7.854300
1011.075000	-7.856309
1027.650000	-7.871689
1044.225000	-7.871529
1060.800000	-7.874226
1077.375000	-7.875575
1093.950000	-7.872945
1110.525000	-7.861612
1127.100000	-7.879180
1143.675000	-7.863903
1160.250000	-7.873192
1176.825000	-7.873411
1193.400000	-7.874358
1209.975000	-7.868903
1226.550000	-7.866866
1243.125000	-7.873364
1259.700000	-7.877776
1276.275000	-7.880531
1292.850000	-7.854384
1309.425000	-7.859385
1326.000000	-7.864913
1342.575000	-7.873531
1359.150000	-7.860948
1375.725000	-7.875617
1392.300000	-7.872241
1408.875000	-7.873471
1425.450000	-7.870771
1442.025000	-7.874495
1458.600000	-7.872248
1475.175000	-7.884146
1491.750000	-7.865729
1508.325000	-7.857561
1524.900000	-7.878300
1541.475000	-7.873489
1558.050000	-7.865306
1574.625000	-7.880445
1591.200000	-7.871494
1607.775000	-7.878137
1624.350000	-7.878137
1640.925000	-7.885297
1657.500000	-7.859955
1674.075000	-7.881421
1690.650000	-7.886292
1707.225000	-7.879378
1723.800000	-7.870595
1740.375000	-7.877447
1756.950000	-7.877955
1773.525000	-7.879173
1790.100000	-7.882963
1806.675000	-7.882418
1823.250000	-7.874009
1839.825000	-7.875839
1856.400000	-7.886975
1872.975000	-7.873395
1889.550000	-7.871835
1906.125000	-7.876261
1922.700000	-7.889567
1939.275000	-7.878808
1955.850000	-7.882797
1972.425000	-7.876339
1989.000000	-7.885220
2005.575000	-7.881589
2022.150000	-7.880907
2038.725000	-7.877451
2055.300000	-7.876235
2071.875000	-7.887277
2088.450000	-7.882811
2105.025000	-7.884852
2121.600000	-7.883385
2138.175000	-7.883458
2154.750000	-7.891521
2171.325000	-7.886971
2187.900000	-7.883941
2204.475000	-7.900892
2221.050000	-7.879170
2237.625000	-7.889263
2254.200000	-7.880905
2270.775000	-7.895190
2287.350000	-7.883352
2303.925000	-7.894142
2320.500000	-7.897563
2337.075000	-7.875152
2353.650000	-7.894167
2370.225000	-7.895387
2386.800000	-7.892702
2403.375000	-7.896552
2419.950000	-7.898437
2436.525000	-7.895765
2453.100000	-7.883286
2469.675000	-7.888896
2486.250000	-7.890966
2502.825000	-7.897887
2519.400000	-7.892664
2535.975000	-7.902856
2552.550000	-7.900062
2569.125000	-7.907382
2585.700000	-7.900668
2602.275000	-7.896892
2618.850000	-7.902739
2635.425000	-7.908776
2652.000000	-7.890929
2668.575000	-7.892172
2685.150000	-7.896475
2701.725000	-7.920226
2718.300000	-7.906504
2734.875000	-7.914498
2751.450000	-7.909731
2768.025000	-7.908917
2784.600000	-7.909042
2801.175000	-7.913941
2817.750000	-7.913893
2834.325000	-7.911051
2850.900000	-7.914522
2867.475000	-7.916473
2884.050000	-7.911604
2900.625000	-7.919901
2917.200000	-7.908560
2933.775000	-7.917190
2950.350000	-7.923970
2966.925000	-7.921348
2983.500000	-7.921512
3000.075000	-7.933447
3016.650000	-7.916435
3033.225000	-7.923833
3049.800000	-7.925813
3066.375000	-7.930349
3082.950000	-7.932080
3099.525000	-7.927214
3116.100000	-7.939825
3132.675000	-7.930509
3149.250000	-7.942044
3165.825000	-7.939653
3182.400000	-7.931439
3198.975000	-7.937091
3215.550000	-7.939370
3232.125000	-7.939568
3248.700000	-7.942456
3265.275000	-7.944344
3281.850000	-7.946825
3298.425000	-7.954259
3315.000000	-7.955613
3331.575000	-7.942136
3348.150000	-7.944332
3364.725000	-7.953880
3381.300000	-7.959461
3397.875000	-7.948777
3414.450000	-7.952447
3431.025000	-7.950396
3447.600000	-7.950323
3464.175000	-7.963841
3480.750000	-7.964875
3497.325000	-7.960322
3513.900000	-7.962769
3530.475000	-7.955518
3547.050000	-7.970397
3563.625000	-7.970686
3580.200000	-7.970478
3596.775000	-7.971730
3613.350000	-7.974699
3629.925000	-7.981505
3646.500000	-7.972980
3663.075000	-7.983743
3679.650000	-7.978025
3696.225000	-7.988089
3712.800000	-7.987855
3729.375000	-7.978676
3745.950000	-7.986093
3762.525000	-7.987866
3779.100000	-7.993845
3795.675000	-7.990804
3812.250000	-7.986794
3828.825000	-7.988838
3845.400000	-7.985464
3861.975000	-7.988541
3878.550000	-7.988606
3895.125000	-7.980068
3911.700000	-7.955819
3928.275000	-7.966414
3944.850000	-7.953119
3961.425000	-7.937939
3978.000000	-7.921049
3994.575000	-7.899642
4011.150000	-7.867085
4027.725000	-7.844732
4044.300000	-7.790037
4060.875000	-7.729850
4077.450000	-7.649413
4094.025000	-7.536427
4110.600000	-7.389221
4127.175000	-7.211556
4143.750000	-6.958133
